<?xml version="1.0" encoding="UTF-8"?><ImplementationGuide xmlns="http://hl7.org/fhir"><id value="davinci-ehrx"/><meta><versionId value="20"/><lastUpdated value="2019-01-13T18:36:44.261-05:00"/></meta><contained><Binary><id value="9429"/><contentType value="text/plain"/><content value="W1BhdGllbnQgU3RvcnkgXShwYXRpZW50LXN0b3J5Lmh0bWwp"/></Binary></contained><contained><Binary><id value="6126"/><contentType value="text/markdown"/><content value=""/></Binary></contained><extension url="https://trifolia-on-fhir.lantanagroup.com/StructureDefinition/extension-ig-dependency"><extension url="https://trifolia-on-fhir.lantanagroup.com/StructureDefinition/extension-ig-dependency-location"><valueUri value="http://hl7.org/fhir/us/core"/></extension><extension url="https://trifolia-on-fhir.lantanagroup.com/StructureDefinition/extension-ig-dependency-name"><valueString value="uscore"/></extension><extension url="https://trifolia-on-fhir.lantanagroup.com/StructureDefinition/extension-ig-dependency-version"><valueString value="2.0.0"/></extension></extension><url value="http://hl7.org/fhir/us/davinci-crd/STU3/ImplementationGuide/davinci-ehrx"/><version value="0.0.1"/><name value="Da Vinci Electronic Health Record Exchange"/><status value="draft"/><publisher value="HL7 Davinci Project"/><description value="This Use Case provides guidance to implementers regarding exchange of a patients eHealth Records. The Use Case is very broad encompassing the following scenarios: &#xA;&#xA;* Exchange of quality measure data to support HEDIS/Stars quality measures,&#xA;* Exchange of clinical information generated by providers during the course of care, and &#xA;* Exchange of clinical information gathered during the claims process by payers. &#xA;&#xA;The exchange of quality measure data can be from Provider to Payer, or Payer to Provider. The exchange of clinical information can be from Provider to Provider, Provider to Payer or Payer to Provider. This Use Case defines a broad set of profiles and interactions that may be utilized to accomplish this wide range of **eHealth Record exchange**. It also includes narrower implementation guidance that demonstrates how to use elements of the framework to accomplish each specific type of information exchange.&#xA;"/><package><name value="default"/><resource><example value="false"/><sourceReference><reference value="StructureDefinition/communication-ehrx"/><display value="communication-ehrx"/></sourceReference></resource></package><global><type value="Patient"/><profile><reference value="http://hl7.org/fhir/us/core/StructureDefinition/us-core-patient"/><display value="us-core-patient"/></profile></global><page><extension url="https://trifolia-on-fhir.lantanagroup.com/StructureDefinition/extension-ig-page-content"><valueReference><reference value="#9429"/><display value="Page content 9429"/></valueReference></extension><source value="toc.html"/><title value="Table of Contents"/><kind value="toc"/><page><extension url="https://trifolia-on-fhir.lantanagroup.com/StructureDefinition/extension-ig-page-content"><valueReference><reference value="#6126"/><display value="Page content 6126"/></valueReference></extension><source value="patient-view.md"/><title value="Patient Story"/><kind value="page"/><format value="markdown"/></page></page></ImplementationGuide>