<?xml version="1.0" encoding="UTF-8"?>
<ImplementationGuide
    xmlns="http://hl7.org/fhir">
    <id value="davinci-hrex"/>
    <meta>
        <versionId value="24"/>
        <lastUpdated value="2019-02-08T15:10:33.075-05:00"/>
    </meta>
    <contained>
        <Binary>
            <id value="8158"/>
            <contentType value="text/markdown"/>
        </Binary>
    </contained>
    <contained>
        <Binary>
            <id value="5767"/>
            <contentType value="text/markdown"/>
        </Binary>
    </contained>
    <contained>
        <Binary>
            <id value="5449"/>
            <contentType value="text/markdown"/>
        </Binary>
    </contained>
    <contained>
        <Binary>
            <id value="8946"/>
            <contentType value="text/markdown"/>
        </Binary>
    </contained>
    <contained>
        <Binary>
            <id value="5455"/>
            <contentType value="text/markdown"/>
        </Binary>
    </contained>
    <contained>
        <Binary>
            <id value="7589"/>
            <contentType value="text/markdown"/>
        </Binary>
    </contained>
    <contained>
        <Binary>
            <id value="6296"/>
            <contentType value="text/markdown"/>
        </Binary>
    </contained>
    <contained>
        <Binary>
            <id value="6207"/>
            <contentType value="text/markdown"/>
        </Binary>
    </contained>
    <contained>
        <Binary>
            <id value="7851"/>
            <contentType value="text/markdown"/>
        </Binary>
    </contained>
    <contained>
        <Binary>
            <id value="6605"/>
            <contentType value="text/markdown"/>
        </Binary>
    </contained>
    <contained>
        <Binary>
            <id value="5164"/>
            <contentType value="text/markdown"/>
        </Binary>
    </contained>
    <contained>
        <Binary>
            <id value="8010"/>
            <contentType value="text/markdown"/>
        </Binary>
    </contained>
    <extension url="https://trifolia-fhir.lantanagroup.com/stu3/StructureDefinition/github-branch">
        <valueString value="master"/>
    </extension>
    <extension url="https://trifolia-fhir.lantanagroup.com/stu3/StructureDefinition/github-path">
        <valueString value="HL7/davinci-ehrx/source/resources/implementationguide/davinci-hrex.xml"/>
    </extension>
    <url value="http://hl7.org/fhir/us/davinci-hrex/ImplementationGuide/davinci-hrex"/>
    <version value="0.0.1"/>
    <name value="Da Vinci Health Record Exchange"/>
    <status value="draft"/>
    <description value="This Use Case provides guidance to implementers regarding exchange of a patients eHealth Records. The Use Case is very broad encompassing the following scenarios: &#xA;&#xA;* Exchange of quality measure data to support HEDIS/Stars quality measures,&#xA;* Exchange of clinical information generated by providers during the course of care, and &#xA;* Exchange of clinical information gathered during the claims process by payers. &#xA;&#xA;The exchange of quality measure data can be from Provider to Payer, or Payer to Provider. The exchange of clinical information can be from Provider to Provider, Provider to Payer or Payer to Provider. This Use Case defines a broad set of profiles and interactions that may be utilized to accomplish this wide range of **eHealth Record exchange**. It also includes narrower implementation guidance that demonstrates how to use elements of the framework to accomplish each specific type of information exchange.&#xA;"/>
    <fhirVersion value="4"/>
    <fhirVersion value="."/>
    <fhirVersion value="0"/>
    <fhirVersion value="."/>
    <fhirVersion value="0"/>
    <dependsOn>
        <uri value="http://hl7.org/fhir/us/core/ImplementationGuide/ig"/>
        <version value="current"/>
    </dependsOn>
    <definition>
        <resource>
            <reference>
                <reference value="StructureDefinition/hrex-coverage"/>
                <display value="HRex Coverage"/>
            </reference>
            <name value="HRex Coverage"/>
            <exampleBoolean value="false"/>
        </resource>
        <page>
            <extension url="https://trifolia-on-fhir.lantanagroup.com/StructureDefinition/extension-ig-page-auto-generate-toc">
                <valueBoolean value="true"/>
            </extension>
            <nameUrl value="toc.md"/>
            <title value="Table of Contents"/>
            <generation value="generated"/>
            <page>
                <nameReference>
                    <reference value="#8158"/>
                    <display value="Page content 8158"/>
                </nameReference>
                <title value="Dependencies"/>
                <generation value="markdown"/>
            </page>
            <page>
                <nameReference>
                    <reference value="#5767"/>
                    <display value="Page content 5767"/>
                </nameReference>
                <title value="HRex Profiles"/>
                <generation value="markdown"/>
            </page>
            <page>
                <nameReference>
                    <reference value="#5449"/>
                    <display value="Page content 5449"/>
                </nameReference>
                <title value="HRex Interactions"/>
                <generation value="markdown"/>
                <page>
                    <nameReference>
                        <reference value="#8946"/>
                        <display value="Page content 8946"/>
                    </nameReference>
                    <title value="Push"/>
                    <generation value="markdown"/>
                </page>
                <page>
                    <nameReference>
                        <reference value="#5455"/>
                        <display value="Page content 5455"/>
                    </nameReference>
                    <title value="Pull"/>
                    <generation value="markdown"/>
                </page>
                <page>
                    <nameReference>
                        <reference value="#7589"/>
                        <display value="Page content 7589"/>
                    </nameReference>
                    <title value="Request"/>
                    <generation value="markdown"/>
                </page>
                <page>
                    <nameReference>
                        <reference value="#6296"/>
                        <display value="Page content 6296"/>
                    </nameReference>
                    <title value="Subscribe"/>
                    <generation value="markdown"/>
                </page>
                <page>
                    <nameReference>
                        <reference value="#6207"/>
                        <display value="Page content 6207"/>
                    </nameReference>
                    <title value="Bulk Data"/>
                    <generation value="markdown"/>
                </page>
                <page>
                    <nameReference>
                        <reference value="#7851"/>
                        <display value="Page content 7851"/>
                    </nameReference>
                    <title value="CDS Hooks"/>
                    <generation value="markdown"/>
                </page>
                <page>
                    <nameReference>
                        <reference value="#6605"/>
                        <display value="Page content 6605"/>
                    </nameReference>
                    <title value="Operations"/>
                    <generation value="markdown"/>
                </page>
                <page>
                    <nameReference>
                        <reference value="#5164"/>
                        <display value="Page content 5164"/>
                    </nameReference>
                    <title value="Rational Combinations"/>
                    <generation value="markdown"/>
                </page>
                <page>
                    <nameReference>
                        <reference value="#8010"/>
                        <display value="Page content 8010"/>
                    </nameReference>
                    <title value="Validation"/>
                    <generation value="markdown"/>
                </page>
            </page>
        </page>
    </definition>
</ImplementationGuide>