{
  "resourceType": "Parameters",
  "id": "member-match-out",
  "parameter": [
    {
      "name": "MemberPatient",
      "resource": {
        "resourceType": "Patient",
        "id": "1",
        "identifier": [
          {
            "type": {
              "coding": [
                {
                  "system": "http://terminology.hl7.org/CodeSystem/v2-0203",
                  "code": "MB"
                }
              ]
            },
            "system": "http://example.com/old-payer",
            "value": "55678",
            "assigner": {
              "display": "New Payer"
            }
          },
          {
            "use": "usual",
            "type": {
              "coding": [
                {
                  "system": "http://hl7.org/fhir/us/davinci-hrex/CodeSystem/hrex-temp",
                  "code": "UMB",
                  "display": "Member Number",
                  "userSelected": false
                }
              ],
              "text": "Member Number"
            },
            "system": "https://example.com/old-payer/diamond-health-ppo/uniquemember",
            "value": "dhu-10102"
          }
        ],
        "name": [
          {
            "use": "official",
            "family": "Person",
            "given": [
              "Patricia",
              "Ann"
            ]
          }
        ],
        "gender": "female",
        "birthDate": "1974-12-25"
      }
    },
    {
      "name": "NewCoverage",
      "resource": {
        "resourceType": "Coverage",
        "id": "AA87654",
        "contained": [
          {
            "resourceType": "Organization",
            "id": "payer",
            "active": true,
            "name": "New Health Plan",
            "endpoint": [
              {
                "reference": "http://example.com/new-payer"
              }
            ]
          }
        ],
        "identifier": [
          {
            "system": "http://example.com/new-payer",
            "value": "234567"
          }
        ],
        "status": "active",
        "beneficiary": {
          "reference": "Patient/1"
        },
        "period": {
          "start": "2020-04-01",
          "end": "2021-03-31"
        },
        "payor": [
          {
            "reference": "#payer"
          }
        ],
        "class": [
          {
            "type": {
              "coding": [
                {
                  "system": "http://terminology.hl7.org/CodeSystem/coverage-class",
                  "code": "group"
                }
              ]
            },
            "value": "A55521",
            "name": "New Health Plan Group"
          },
          {
            "type": {
              "coding": [
                {
                  "system": "http://terminology.hl7.org/CodeSystem/coverage-class",
                  "code": "subgroup"
                }
              ]
            },
            "value": "456"
          },
          {
            "type": {
              "coding": [
                {
                  "system": "http://terminology.hl7.org/CodeSystem/coverage-class",
                  "code": "plan"
                }
              ]
            },
            "value": "99012"
          },
          {
            "type": {
              "coding": [
                {
                  "system": "http://terminology.hl7.org/CodeSystem/coverage-class",
                  "code": "subplan"
                }
              ]
            },
            "value": "A4"
          },
          {
            "type": {
              "coding": [
                {
                  "system": "http://terminology.hl7.org/CodeSystem/coverage-class",
                  "code": "class"
                }
              ]
            },
            "value": "GOLD"
          }
        ]
      }
    }
  ]
}